Data from Subt10__5__15-52-57-193.txt Node

Date: Thu Apr 21 15:52:57 CEST 2022
User: jeppe
Spectrometer: FLMS05814
Trigger mode: 0
Integration Time (sec): 1,000000E-1
Scans to average: 1
Electric dark correction enabled: true
Nonlinearity correction enabled: false
Boxcar width: 0
XAxis mode: Wavelengths
Number of Pixels in Spectrum: 2048
>>>>>Begin Spectral Data<<<<<
188,012	81,92
188,47	81,92
188,927	81,92
189,385	-32,77
189,842	-25,75
190,3	11,7
190,757	53,83
191,215	-25,75
191,672	-14,04
192,129	18,72
192,586	18,72
193,044	-2,34
193,501	-32,77
193,958	21,06
194,415	119,37
194,872	-51,49
195,329	-16,38
195,787	-67,88
196,244	23,41
196,7	-77,24
197,157	21,06
197,614	32,77
198,071	-21,06
198,528	39,79
198,985	119,37
199,441	14,04
199,898	51,49
200,355	11,7
200,812	88,94
201,268	156,82
201,725	18,72
202,181	74,9
202,638	23,41
203,094	-65,54
203,551	100,64
204,007	-4,68
204,463	-11,7
204,92	72,56
205,376	16,38
205,832	53,83
206,288	184,9
206,744	105,32
207,201	58,51
207,657	86,6
208,113	147,45
208,569	-21,06
209,025	107,66
209,481	84,26
209,937	51,49
210,392	67,88
210,848	72,56
211,304	65,53
211,76	70,22
212,215	-7,02
212,671	56,17
213,127	30,43
213,582	60,85
214,038	166,18
214,494	70,22
214,949	35,11
215,404	159,16
215,86	128,73
216,315	35,11
216,771	30,43
217,226	114,69
217,681	105,32
218,136	-44,47
218,592	114,69
219,047	88,94
219,502	51,49
219,957	-23,41
220,412	-37,45
220,867	18,72
221,322	-7,02
221,777	121,71
222,232	86,6
222,687	142,77
223,142	4,68
223,596	93,62
224,051	168,52
224,506	88,94
224,96	159,16
225,415	131,07
225,87	126,39
226,324	138,09
226,779	4,68
227,233	77,24
227,688	11,7
228,142	91,28
228,597	-67,88
229,051	173,2
229,505	-0
229,959	65,53
230,414	72,56
230,868	119,37
231,322	74,9
231,776	21,06
232,23	88,94
232,684	119,37
233,138	-2,34
233,592	-23,41
234,046	37,45
234,5	7,02
234,954	67,88
235,408	81,92
235,861	-25,75
236,315	-4,68
236,769	49,15
237,222	60,85
237,676	11,7
238,13	60,85
238,583	142,77
239,037	-51,49
239,49	18,72
239,944	126,39
240,397	65,53
240,85	23,41
241,304	128,73
241,757	11,7
242,21	102,98
242,663	79,58
243,117	67,88
243,57	16,38
244,023	51,49
244,476	-30,43
244,929	98,3
245,382	84,26
245,835	77,24
246,288	79,58
246,741	86,6
247,193	88,94
247,646	9,36
248,099	187,24
248,552	84,26
249,004	-65,54
249,457	58,51
249,909	46,81
250,362	86,6
250,814	81,92
251,267	51,49
251,719	60,85
252,172	100,64
252,624	60,85
253,076	147,45
253,529	74,9
253,981	16,38
254,433	30,43
254,885	-23,41
255,337	100,64
255,79	170,86
256,242	44,47
256,694	98,3
257,146	51,49
257,598	44,47
258,049	51,49
258,501	25,75
258,953	138,09
259,405	-14,04
259,857	63,19
260,308	98,3
260,76	-25,75
261,212	152,13
261,663	-37,45
262,115	91,28
262,566	-11,7
263,018	70,22
263,469	135,75
263,92	88,94
264,372	105,32
264,823	49,15
265,274	16,38
265,726	35,11
266,177	117,03
266,628	-9,36
267,079	65,53
267,53	100,64
267,981	-16,38
268,432	37,45
268,883	7,02
269,334	-11,7
269,785	16,38
270,236	4,68
270,687	51,49
271,137	49,15
271,588	-16,38
272,039	21,06
272,489	152,13
272,94	124,05
273,391	51,49
273,841	-4,68
274,292	98,3
274,742	56,17
275,192	112,35
275,643	-35,11
276,093	56,17
276,543	107,66
276,994	60,85
277,444	-37,45
277,894	-18,72
278,344	124,05
278,794	16,38
279,244	39,79
279,694	79,58
280,144	56,17
280,594	88,94
281,044	49,15
281,494	18,72
281,944	42,13
282,394	25,75
282,843	63,19
283,293	98,3
283,743	121,71
284,192	-65,54
284,642	-7,02
285,091	138,09
285,541	121,71
285,99	58,51
286,44	11,7
286,889	102,98
287,338	67,88
287,788	58,51
288,237	51,49
288,686	37,45
289,135	102,98
289,584	126,39
290,034	74,9
290,483	-4,68
290,932	42,13
291,381	124,05
291,83	2,34
292,278	2,34
292,727	28,09
293,176	81,92
293,625	84,26
294,074	-28,09
294,522	131,07
294,971	135,75
295,42	72,56
295,868	100,64
296,317	124,05
296,765	11,7
297,214	81,92
297,662	63,19
298,11	35,11
298,559	102,98
299,007	42,13
299,455	77,24
299,903	11,7
300,352	21,06
300,8	166,18
301,248	65,53
301,696	98,3
302,144	126,39
302,592	56,17
303,04	77,24
303,488	18,72
303,936	142,77
304,383	149,79
304,831	128,73
305,279	131,07
305,727	126,39
306,174	145,11
306,622	124,05
307,069	100,64
307,517	142,77
307,964	21,06
308,412	74,9
308,859	-23,41
309,306	142,77
309,754	56,17
310,201	149,79
310,648	133,41
311,096	112,35
311,543	131,07
311,99	163,84
312,437	227,03
312,884	1193,67
313,331	2731,41
313,778	4156,79
314,225	4053,81
314,672	2747,79
315,118	1394,96
315,565	840,25
316,012	402,57
316,459	205,97
316,905	149,79
317,352	107,66
317,798	35,11
318,245	191,92
318,691	126,39
319,138	119,37
319,584	49,15
320,031	77,24
320,477	63,19
320,923	133,41
321,37	161,5
321,816	98,3
322,262	196,6
322,708	25,75
323,154	84,26
323,6	93,62
324,046	147,45
324,492	140,43
324,938	138,09
325,384	126,39
325,83	128,73
326,276	147,45
326,721	117,03
327,167	133,41
327,613	32,77
328,058	72,56
328,504	175,54
328,949	81,92
329,395	88,94
329,84	65,53
330,286	110,01
330,731	63,19
331,177	119,37
331,622	177,88
332,067	74,9
332,512	-44,47
332,957	86,6
333,403	77,24
333,848	166,18
334,293	615,56
334,738	1385,6
335,183	1582,2
335,628	1277,93
336,072	718,54
336,517	386,19
336,962	133,41
337,407	182,56
337,852	271,5
338,296	152,13
338,741	84,26
339,185	102,98
339,63	121,71
340,074	91,28
340,519	135,75
340,963	135,75
341,408	79,58
341,852	112,35
342,296	77,24
342,741	126,39
343,185	93,62
343,629	133,41
344,073	95,96
344,517	131,07
344,961	131,07
345,405	70,22
345,849	121,71
346,293	205,97
346,737	182,56
347,181	117,03
347,624	112,35
348,068	119,37
348,512	222,35
348,955	227,03
349,399	360,44
349,843	280,86
350,286	372,15
350,73	306,61
351,173	154,48
351,617	245,76
352,06	154,48
352,503	39,79
352,946	105,32
353,39	147,45
353,833	93,62
354,276	138,09
354,719	191,92
355,162	121,71
355,605	95,96
356,048	236,39
356,491	198,95
356,934	170,86
357,377	170,86
357,82	205,97
358,262	224,69
358,705	159,16
359,148	131,07
359,59	266,82
360,033	358,1
360,475	102,98
360,918	264,48
361,36	208,31
361,803	262,14
362,245	257,46
362,688	212,99
363,13	402,57
363,572	645,99
364,014	798,12
364,456	1657,1
364,899	6981,82
365,341	35222,72
365,783	52666,73
366,225	54141,27
366,667	35264,85
367,108	18984,09
367,55	11712,04
367,992	6277,32
368,434	2846,09
368,876	1177,29
369,317	699,82
369,759	416,62
370,201	334,7
370,642	262,14
371,084	334,7
371,525	241,08
371,966	318,31
372,408	255,12
372,849	287,89
373,29	390,87
373,732	208,31
374,173	156,82
374,614	65,53
375,055	184,9
375,496	152,13
375,937	140,43
376,378	67,88
376,819	173,2
377,26	91,28
377,701	177,88
378,142	252,78
378,583	187,24
379,023	140,43
379,464	81,92
379,905	110,01
380,345	126,39
380,786	112,35
381,226	100,64
381,667	110,01
382,107	227,03
382,548	119,37
382,988	88,94
383,428	147,45
383,868	81,92
384,309	79,58
384,749	142,77
385,189	105,32
385,629	231,71
386,069	133,41
386,509	37,45
386,949	102,98
387,389	88,94
387,829	166,18
388,268	65,53
388,708	119,37
389,148	70,22
389,588	187,24
390,027	128,73
390,467	163,84
390,906	222,35
391,346	388,53
391,785	365,12
392,225	222,35
392,664	238,73
393,103	95,96
393,543	100,64
393,982	95,96
394,421	161,5
394,86	227,03
395,299	182,56
395,738	156,82
396,177	107,66
396,616	252,78
397,055	205,97
397,494	145,11
397,933	194,26
398,372	126,39
398,81	252,78
399,249	287,89
399,688	156,82
400,126	175,54
400,565	271,5
401,004	393,21
401,442	367,46
401,88	400,23
402,319	418,96
402,757	290,23
403,195	362,78
403,634	341,72
404,072	606,2
404,51	2951,42
404,948	15311,78
405,386	24343,91
405,824	24379,02
406,262	12908,05
406,7	5617,29
407,138	2867,16
407,576	1891,15
408,014	2071,37
408,452	2642,46
408,889	2993,55
409,327	1675,82
409,765	748,97
410,202	430,66
410,64	351,08
411,077	292,57
411,515	196,6
411,952	271,5
412,389	257,46
412,827	110,01
413,264	51,49
413,701	182,56
414,138	152,13
414,575	170,86
415,013	227,03
415,45	145,11
415,887	374,49
416,324	894,08
416,76	1217,08
417,197	950,26
417,634	688,12
418,071	297,25
418,508	346,4
418,944	276,18
419,381	435,34
419,818	739,61
420,254	1088,35
420,691	1502,62
421,127	1486,24
421,563	1093,03
422	505,56
422,436	393,21
422,872	189,58
423,309	124,05
423,745	77,24
424,181	60,85
424,617	145,11
425,053	159,16
425,489	140,43
425,925	210,65
426,361	381,51
426,797	582,79
427,233	596,84
427,668	744,29
428,104	596,84
428,54	461,09
428,975	327,67
429,411	203,63
429,847	346,4
430,282	287,89
430,717	374,49
431,153	395,55
431,588	255,12
432,024	355,76
432,459	320,65
432,894	121,71
433,329	304,27
433,764	599,18
434,199	884,72
434,634	1530,71
435,069	2361,6
435,504	4641,28
435,939	27576,19
436,374	53022,5
436,809	60221,98
437,244	50087,46
437,678	24034,96
438,113	10038,56
438,548	5404,3
438,982	2628,42
439,417	1132,82
439,851	524,28
440,286	486,83
440,72	252,78
441,154	170,86
441,589	212,99
442,023	119,37
442,457	191,92
442,891	198,95
443,326	159,16
443,76	142,77
444,194	114,69
444,628	117,03
445,062	51,49
445,495	180,22
445,929	140,43
446,363	201,29
446,797	39,79
447,23	70,22
447,664	70,22
448,098	182,56
448,531	21,06
448,965	102,98
449,398	135,75
449,832	-14,04
450,265	72,56
450,698	51,49
451,132	37,45
451,565	196,6
451,998	205,97
452,431	245,76
452,864	28,09
453,297	93,62
453,73	63,19
454,163	110,01
454,596	65,53
455,029	128,73
455,462	2,34
455,895	77,24
456,327	100,64
456,76	44,47
457,193	39,79
457,625	177,88
458,058	46,81
458,49	156,82
458,923	21,06
459,355	112,35
459,787	84,26
460,22	53,83
460,652	175,54
461,084	56,17
461,516	105,32
461,948	-14,04
462,381	184,9
462,813	81,92
463,245	114,69
463,676	126,39
464,108	72,56
464,54	147,45
464,972	142,77
465,404	65,53
465,835	156,82
466,267	198,95
466,699	203,63
467,13	107,66
467,562	126,39
467,993	105,32
468,424	102,98
468,856	-49,15
469,287	154,48
469,718	2,34
470,15	42,13
470,581	30,43
471,012	133,41
471,443	9,36
471,874	168,52
472,305	133,41
472,736	126,39
473,167	14,04
473,598	91,28
474,028	58,51
474,459	107,66
474,89	131,07
475,32	25,75
475,751	53,83
476,182	102,98
476,612	93,62
477,043	42,13
477,473	58,51
477,903	67,88
478,334	79,58
478,764	131,07
479,194	149,79
479,624	79,58
480,054	70,22
480,484	72,56
480,914	212,99
481,344	102,98
481,774	91,28
482,204	77,24
482,634	100,64
483,064	58,51
483,494	131,07
483,923	77,24
484,353	37,45
484,782	77,24
485,212	98,3
485,642	72,56
486,071	121,71
486,5	98,3
486,93	70,22
487,359	117,03
487,788	114,69
488,217	182,56
488,647	60,85
489,076	138,09
489,505	100,64
489,934	32,77
490,363	28,09
490,792	67,88
491,221	184,9
491,649	461,09
492,078	1053,24
492,507	1350,49
492,936	1212,4
493,364	667,05
493,793	360,44
494,221	135,75
494,65	182,56
495,078	121,71
495,507	135,75
495,935	16,38
496,363	51,49
496,791	2,34
497,22	98,3
497,648	77,24
498,076	44,47
498,504	255,12
498,932	37,45
499,36	133,41
499,788	93,62
500,216	11,7
500,643	168,52
501,071	140,43
501,499	159,16
501,927	133,41
502,354	70,22
502,782	131,07
503,209	140,43
503,637	110,01
504,064	131,07
504,491	49,15
504,919	114,69
505,346	117,03
505,773	142,77
506,2	112,35
506,628	145,11
507,055	107,66
507,482	105,32
507,909	145,11
508,335	121,71
508,762	77,24
509,189	84,26
509,616	84,26
510,043	102,98
510,469	189,58
510,896	140,43
511,323	-0
511,749	39,79
512,176	81,92
512,602	65,53
513,028	173,2
513,455	77,24
513,881	163,84
514,307	67,88
514,733	124,05
515,16	147,45
515,586	46,81
516,012	175,54
516,438	205,97
516,864	135,75
517,29	133,41
517,715	114,69
518,141	156,82
518,567	203,63
518,993	175,54
519,418	262,14
519,844	159,16
520,269	95,96
520,695	63,19
521,12	110,01
521,546	102,98
521,971	138,09
522,396	121,71
522,822	170,86
523,247	212,99
523,672	98,3
524,097	156,82
524,522	70,22
524,947	102,98
525,372	105,32
525,797	121,71
526,222	81,92
526,647	105,32
527,071	201,29
527,496	102,98
527,921	161,5
528,345	114,69
528,77	126,39
529,194	163,84
529,619	39,79
530,043	112,35
530,468	88,94
530,892	102,98
531,316	110,01
531,74	98,3
532,164	65,53
532,589	147,45
533,013	119,37
533,437	133,41
533,861	46,81
534,284	194,26
534,708	114,69
535,132	175,54
535,556	98,3
535,98	138,09
536,403	58,51
536,827	60,85
537,25	212,99
537,674	102,98
538,097	152,13
538,521	159,16
538,944	72,56
539,367	138,09
539,791	156,82
540,214	243,42
540,637	74,9
541,06	142,77
541,483	241,08
541,906	156,82
542,329	-18,72
542,752	-4,68
543,175	107,66
543,598	128,73
544,02	184,9
544,443	276,18
544,866	355,76
545,288	610,88
545,711	1565,82
546,133	25308,21
546,556	62021,86
546,978	62759,12
547,4	62808,28
547,823	57684,84
548,245	24533,5
548,667	11293,08
549,089	5785,8
549,511	2260,96
549,933	1071,97
550,355	535,98
550,777	505,56
551,199	220,01
551,621	252,78
552,043	191,92
552,465	121,71
552,886	215,33
553,308	84,26
553,729	241,08
554,151	65,53
554,572	142,77
554,994	70,22
555,415	74,9
555,837	189,58
556,258	248,1
556,679	234,05
557,1	182,56
557,521	208,31
557,942	224,69
558,363	278,52
558,784	301,93
559,205	229,37
559,626	-18,72
560,047	119,37
560,468	81,92
560,888	168,52
561,309	297,25
561,73	311,29
562,15	245,76
562,571	175,54
562,991	84,26
563,412	44,47
563,832	65,53
564,252	51,49
564,673	124,05
565,093	156,82
565,513	180,22
565,933	147,45
566,353	168,52
566,773	173,2
567,193	166,18
567,613	112,35
568,033	203,63
568,452	184,9
568,872	182,56
569,292	133,41
569,711	107,66
570,131	77,24
570,551	81,92
570,97	114,69
571,389	131,07
571,809	128,73
572,228	60,85
572,647	-63,19
573,067	23,41
573,486	105,32
573,905	-16,38
574,324	70,22
574,743	51,49
575,162	170,86
575,581	182,56
576	229,37
576,419	203,63
576,837	1060,26
577,256	6614,35
577,675	11044,99
578,093	12950,18
578,512	7922,71
578,93	4915,12
579,349	8908,08
579,767	12463,35
580,185	13874,7
580,604	8519,55
581,022	4388,5
581,44	2172,02
581,858	1179,63
582,276	510,24
582,694	308,95
583,112	175,54
583,53	128,73
583,948	159,16
584,366	100,64
584,784	-30,43
585,201	231,71
585,619	95,96
586,037	126,39
586,454	180,22
586,872	184,9
587,289	128,73
587,707	74,9
588,124	4,68
588,541	112,35
588,958	110,01
589,376	189,58
589,793	184,9
590,21	161,5
590,627	105,32
591,044	53,83
591,461	98,3
591,878	100,64
592,294	224,69
592,711	238,73
593,128	86,6
593,545	128,73
593,961	100,64
594,378	112,35
594,794	77,24
595,211	107,66
595,627	11,7
596,043	86,6
596,46	65,53
596,876	46,81
597,292	74,9
597,708	4,68
598,124	9,36
598,54	98,3
598,956	126,39
599,372	67,88
599,788	128,73
600,204	128,73
600,62	9,36
601,035	114,69
601,451	140,43
601,867	138,09
602,282	58,51
602,698	18,72
603,113	88,94
603,529	299,59
603,944	367,46
604,359	360,44
604,774	505,56
605,19	315,97
605,605	325,33
606,02	149,79
606,435	248,1
606,85	198,95
607,265	217,67
607,68	124,05
608,094	63,19
608,509	98,3
608,924	70,22
609,338	56,17
609,753	126,39
610,168	114,69
610,582	70,22
610,997	131,07
611,411	63,19
611,825	-77,24
612,24	-98,3
612,654	37,45
613,068	-9,36
613,482	86,6
613,896	44,47
614,31	-16,38
614,724	9,36
615,138	-58,51
615,552	37,45
615,966	39,79
616,379	74,9
616,793	112,35
617,207	30,43
617,62	126,39
618,034	168,52
618,447	28,09
618,861	133,41
619,274	79,58
619,687	58,51
620,101	49,15
620,514	2,34
620,927	4,68
621,34	30,43
621,753	65,53
622,166	84,26
622,579	79,58
622,992	149,79
623,405	79,58
623,817	84,26
624,23	147,45
624,643	60,85
625,055	149,79
625,468	18,72
625,88	105,32
626,293	-49,15
626,705	-25,75
627,118	81,92
627,53	60,85
627,942	135,75
628,354	63,19
628,766	88,94
629,179	25,75
629,591	79,58
630,003	37,45
630,414	-58,51
630,826	140,43
631,238	39,79
631,65	65,53
632,061	138,09
632,473	86,6
632,885	86,6
633,296	121,71
633,708	161,5
634,119	7,02
634,53	56,17
634,942	98,3
635,353	51,49
635,764	32,77
636,175	95,96
636,586	37,45
636,998	-9,36
637,408	-67,88
637,819	63,19
638,23	-0
638,641	93,62
639,052	124,05
639,463	100,64
639,873	2,34
640,284	51,49
640,694	46,81
641,105	46,81
641,515	63,19
641,926	126,39
642,336	290,23
642,746	315,97
643,157	189,58
643,567	184,9
643,977	135,75
644,387	154,48
644,797	95,96
645,207	-60,85
645,617	161,5
646,026	35,11
646,436	114,69
646,846	102,98
647,256	124,05
647,665	88,94
648,075	114,69
648,484	163,84
648,894	88,94
649,303	84,26
649,713	79,58
650,122	60,85
650,531	4,68
650,94	67,88
651,349	114,69
651,758	-49,15
652,167	46,81
652,576	28,09
652,985	74,9
653,394	28,09
653,803	86,6
654,212	81,92
654,62	84,26
655,029	152,13
655,437	187,24
655,846	107,66
656,254	124,05
656,663	65,53
657,071	98,3
657,479	88,94
657,888	105,32
658,296	107,66
658,704	21,06
659,112	142,77
659,52	49,15
659,928	46,81
660,336	60,85
660,744	-0
661,152	51,49
661,559	65,53
661,967	98,3
662,375	77,24
662,782	51,49
663,19	-0
663,597	100,64
664,005	44,47
664,412	140,43
664,819	86,6
665,226	-21,06
665,634	-25,75
666,041	100,64
666,448	56,17
666,855	112,35
667,262	114,69
667,669	145,11
668,075	297,25
668,482	486,83
668,889	458,74
669,296	191,92
669,702	294,91
670,109	128,73
670,515	166,18
670,922	105,32
671,328	51,49
671,734	35,11
672,141	81,92
672,547	30,43
672,953	112,35
673,359	227,03
673,765	180,22
674,171	72,56
674,577	-18,72
674,983	161,5
675,389	266,82
675,795	346,4
676,201	489,17
676,606	428,32
677,012	308,95
677,417	159,16
677,823	2,34
678,228	191,92
678,634	110,01
679,039	98,3
679,444	131,07
679,849	-9,36
680,255	56,17
680,66	-2,34
681,065	49,15
681,47	126,39
681,875	23,41
682,28	95,96
682,684	25,75
683,089	18,72
683,494	121,71
683,899	44,47
684,303	42,13
684,708	128,73
685,112	16,38
685,517	37,45
685,921	114,69
686,325	37,45
686,729	11,7
687,134	203,63
687,538	238,73
687,942	383,85
688,346	344,06
688,75	425,98
689,154	194,26
689,558	234,05
689,961	215,33
690,365	208,31
690,769	154,48
691,173	475,13
691,576	383,85
691,98	409,59
692,383	182,56
692,786	203,63
693,19	264,48
693,593	196,6
693,996	222,35
694,399	269,16
694,803	292,57
695,206	369,8
695,609	205,97
696,012	404,91
696,414	3625,49
696,817	13256,79
697,22	19143,24
697,623	20650,55
698,025	12840,18
698,428	7775,26
698,831	4636,6
699,233	2773,53
699,636	1912,22
700,038	1203,04
700,44	837,91
700,842	393,21
701,245	243,42
701,647	220,01
702,049	105,32
702,451	208,31
702,853	100,64
703,255	255,12
703,657	365,12
704,058	280,86
704,46	304,27
704,862	231,71
705,264	280,86
705,665	212,99
706,067	255,12
706,468	1359,85
706,869	6836,7
707,271	11492,03
707,672	13652,34
708,073	9900,47
708,474	6160,29
708,876	3744,86
709,277	2232,87
709,678	1530,71
710,079	1008,77
710,479	760,67
710,88	355,76
711,281	182,56
711,682	145,11
712,082	203,63
712,483	42,13
712,883	187,24
713,284	79,58
713,684	79,58
714,085	86,6
714,485	332,36
714,885	1163,25
715,285	1849,02
715,686	1921,58
716,086	1441,77
716,486	971,32
716,886	552,37
717,285	451,72
717,685	454,06
718,085	236,39
718,485	142,77
718,884	126,39
719,284	42,13
719,684	81,92
720,083	-9,36
720,483	163,84
720,882	-37,45
721,281	119,37
721,68	152,13
722,08	88,94
722,479	95,96
722,878	112,35
723,277	133,41
723,676	79,58
724,075	145,11
724,474	84,26
724,872	18,72
725,271	-32,77
725,67	23,41
726,068	145,11
726,467	145,11
726,865	159,16
727,264	1523,69
727,662	3466,33
728,061	4367,44
728,459	4018,7
728,857	2403,73
729,255	1411,34
729,653	997,07
730,051	608,54
730,449	524,28
730,847	325,33
731,245	301,93
731,643	173,2
732,041	163,84
732,438	238,73
732,836	119,37
733,233	46,81
733,631	166,18
734,028	86,6
734,426	189,58
734,823	156,82
735,22	166,18
735,617	231,71
736,015	154,48
736,412	191,92
736,809	227,03
737,206	395,55
737,603	507,9
737,999	1427,73
738,396	8102,93
738,793	16070,12
739,19	20034,99
739,586	17188,89
739,983	9848,97
740,379	6518,39
740,776	3913,38
741,172	2513,74
741,568	1825,62
741,965	1355,17
742,361	833,23
742,757	451,72
743,153	407,25
743,549	231,71
743,945	124,05
744,341	292,57
744,737	224,69
745,133	191,92
745,528	152,13
745,924	191,92
746,32	196,6
746,715	168,52
747,111	191,92
747,506	177,88
747,901	203,63
748,297	198,95
748,692	236,39
749,087	276,18
749,482	404,91
749,877	891,74
750,272	7878,24
750,667	21078,86
751,062	28594,32
751,457	37912
751,852	36119,15
752,247	34583,76
752,641	26707,85
753,036	15620,74
753,43	9989,41
753,825	6445,84
754,219	4219,99
754,614	2867,16
755,008	2033,93
755,402	1320,06
755,796	844,93
756,19	437,68
756,584	313,63
756,978	168,52
757,372	220,01
757,766	140,43
758,16	241,08
758,554	194,26
758,948	105,32
759,341	191,92
759,735	194,26
760,128	203,63
760,522	180,22
760,915	266,82
761,308	243,42
761,702	301,93
762,095	367,46
762,488	430,66
762,881	1268,57
763,274	13411,27
763,667	48027,79
764,06	58784,89
764,453	60748,6
764,846	48367,17
765,239	30363,77
765,631	17750,62
766,024	10724,33
766,416	7262,68
766,809	5678,14
767,201	4367,44
767,594	2705,66
767,986	1507,3
768,378	821,53
768,77	395,55
769,163	271,5
769,555	182,56
769,947	168,52
770,339	241,08
770,73	182,56
771,122	301,93
771,514	365,12
771,906	1081,33
772,297	8091,23
772,689	18895,14
773,081	24463,28
773,472	22520,63
773,863	12615,49
774,255	7906,33
774,646	4868,31
775,037	3222,92
775,428	2136,91
775,82	1973,07
776,211	1465,18
776,602	835,57
776,993	454,06
777,383	327,67
777,774	114,69
778,165	182,56
778,556	149,79
778,946	140,43
779,337	142,77
779,727	9,36
780,118	-0
780,508	86,6
780,898	119,37
781,289	88,94
781,679	67,88
782,069	126,39
782,459	131,07
782,849	21,06
783,239	53,83
783,629	98,3
784,019	74,9
784,408	28,09
784,798	79,58
785,188	53,83
785,577	4,68
785,967	21,06
786,356	81,92
786,746	128,73
787,135	119,37
787,524	93,62
787,914	-51,49
788,303	194,26
788,692	114,69
789,081	25,75
789,47	9,36
789,859	114,69
790,248	81,92
790,636	135,75
791,025	170,86
791,414	72,56
791,802	18,72
792,191	175,54
792,579	98,3
792,968	135,75
793,356	152,13
793,744	234,05
794,133	395,55
794,521	2527,78
794,909	9547,05
795,297	13982,36
795,685	15225,18
796,073	9572,79
796,461	5771,76
796,848	3798,69
797,236	2452,88
797,624	1689,87
798,011	1404,32
798,399	1224,1
798,787	1027,5
799,174	732,59
799,561	447,04
799,949	615,56
800,336	2450,54
800,723	7716,75
801,11	13008,7
801,497	22583,83
801,884	24372
802,271	23726,01
802,658	16711,42
803,045	9577,47
803,432	6483,28
803,818	4521,91
804,205	3094,19
804,591	2443,52
804,978	1865,41
805,364	1603,27
805,751	1032,18
806,137	540,66
806,523	421,3
806,91	220,01
807,296	308,95
807,682	173,2
808,068	184,9
808,454	241,08
808,84	227,03
809,225	376,83
809,611	580,45
809,997	2586,29
810,382	10576,88
810,768	16458,65
811,153	25029,69
811,539	43679,08
811,924	51407,53
812,31	53310,38
812,695	40095,72
813,08	24428,17
813,465	16720,79
813,85	11618,42
814,235	7999,95
814,62	5937,94
815,005	4807,46
815,39	3941,46
815,775	2705,66
816,159	1547,09
816,544	842,59
816,929	421,3
817,313	276,18
817,697	198,95
818,082	168,52
818,466	138,09
818,85	180,22
819,235	161,5
819,619	126,39
820,003	168,52
820,387	95,96
820,771	51,49
821,155	37,45
821,538	173,2
821,922	121,71
822,306	60,85
822,689	74,9
823,073	84,26
823,457	175,54
823,84	189,58
824,223	93,62
824,607	28,09
824,99	124,05
825,373	231,71
825,756	346,4
826,139	1905,2
826,522	5703,89
826,905	7859,52
827,288	8189,53
827,671	5401,96
828,054	3749,54
828,436	2504,37
828,819	1748,38
829,201	1252,19
829,584	1036,86
829,966	800,46
830,349	676,41
830,731	606,2
831,113	255,12
831,495	222,35
831,878	205,97
832,26	107,66
832,642	58,51
833,024	210,65
833,405	128,73
833,787	65,53
834,169	86,6
834,551	79,58
834,932	39,79
835,314	133,41
835,695	70,22
836,077	121,71
836,458	-16,38
836,839	126,39
837,22	140,43
837,602	117,03
837,983	51,49
838,364	107,66
838,745	133,41
839,126	110,01
839,506	131,07
839,887	245,76
840,268	819,19
840,649	3772,94
841,029	8109,96
841,41	10244,52
841,79	9792,8
842,171	10354,53
842,551	16248
842,931	19726,03
843,311	19089,41
843,691	13600,85
844,072	9214,69
844,452	6787,55
844,832	5015,77
845,211	3569,32
845,591	2473,95
845,971	1942,64
846,351	1664,12
846,73	1284,95
847,11	880,04
847,489	477,47
847,869	198,95
848,248	325,33
848,627	93,62
849,007	39,79
849,386	110,01
849,765	140,43
850,144	105,32
850,523	131,07
850,902	112,35
851,281	100,64
851,66	475,13
852,038	2012,86
852,417	3969,55
852,796	4650,64
853,174	4238,71
853,553	2918,65
853,931	2125,21
854,309	1526,03
854,688	1163,25
855,066	840,25
855,444	690,46
855,822	571,09
856,2	550,03
856,578	440,02
856,956	376,83
857,334	147,45
857,712	100,64
858,089	49,15
858,467	-30,43
858,844	88,94
859,222	-11,7
859,599	39,79
859,977	-37,45
860,354	77,24
860,731	28,09
861,109	110,01
861,486	121,71
861,863	-18,72
862,24	112,35
862,617	74,9
862,993	86,6
863,37	-42,13
863,747	14,04
864,124	102,98
864,5	91,28
864,877	-4,68
865,253	-9,36
865,63	110,01
866,006	70,22
866,382	194,26
866,758	428,32
867,135	739,61
867,511	807,48
867,887	844,93
868,263	653,01
868,639	414,27
869,014	337,04
869,39	159,16
869,766	149,79
870,141	222,35
870,517	159,16
870,892	180,22
871,268	121,71
871,643	44,47
872,019	44,47
872,394	121,71
872,769	46,81
873,144	-11,7
873,519	81,92
873,894	25,75
874,269	91,28
874,644	37,45
875,019	-30,43
875,393	-25,75
875,768	11,7
876,143	-16,38
876,517	32,77
876,891	-30,43
877,266	112,35
877,64	51,49
878,014	46,81
878,389	102,98
878,763	16,38
879,137	37,45
879,511	-28,09
879,885	60,85
880,259	67,88
880,632	-49,15
881,006	51,49
881,38	53,83
881,753	56,17
882,127	18,72
882,5	100,64
882,874	-37,45
883,247	7,02
883,62	2,34
883,994	-18,72
884,367	11,7
884,74	37,45
885,113	21,06
885,486	23,41
885,859	44,47
886,231	9,36
886,604	95,96
886,977	-4,68
887,349	-21,06
887,722	35,11
888,094	117,03
888,467	32,77
888,839	93,62
889,211	72,56
889,584	39,79
889,956	65,53
890,328	-2,34
890,7	72,56
891,072	67,88
891,444	74,9
891,816	11,7
892,187	-35,11
892,559	170,86
892,931	79,58
893,302	-46,81
893,674	46,81
894,045	131,07
894,416	-46,81
894,788	51,49
895,159	42,13
895,53	18,72
895,901	30,43
896,272	35,11
896,643	4,68
897,014	56,17
897,385	98,3
897,756	-51,49
898,126	-2,34
898,497	35,11
898,867	49,15
899,238	74,9
899,608	32,77
899,979	49,15
900,349	-30,43
900,719	-70,22
901,089	37,45
901,459	84,26
901,829	60,85
902,199	58,51
902,569	105,32
902,939	91,28
903,309	2,34
903,679	58,51
904,048	70,22
904,418	-23,41
904,787	21,06
905,157	131,07
905,526	88,94
905,895	39,79
906,265	46,81
906,634	-9,36
907,003	131,07
907,372	-28,09
907,741	46,81
908,11	81,92
908,478	121,71
908,847	86,6
909,216	84,26
909,585	-18,72
909,953	91,28
910,322	32,77
910,69	205,97
911,058	46,81
911,427	72,56
911,795	231,71
912,163	402,57
912,531	973,66
912,899	2225,85
913,267	3925,08
913,635	5577,5
914,003	5811,55
914,37	4655,33
914,738	3190,15
915,106	2228,19
915,473	1762,42
915,841	1401,98
916,208	1118,78
916,575	1064,94
916,943	880,04
917,31	660,03
917,677	348,74
918,044	217,67
918,411	63,19
918,778	227,03
919,145	131,07
919,512	79,58
919,879	93,62
920,245	53,83
920,612	56,17
920,978	156,82
921,345	60,85
921,711	28,09
922,078	100,64
922,444	81,92
922,81	222,35
923,176	379,17
923,542	587,47
923,908	877,7
924,274	1041,54
924,64	1069,62
925,006	674,07
925,371	433
925,737	283,2
926,103	355,76
926,468	346,4
926,834	241,08
927,199	262,14
927,564	187,24
927,93	112,35
928,295	37,45
928,66	49,15
929,025	42,13
929,39	42,13
929,755	100,64
930,12	128,73
930,484	121,71
930,849	-32,77
931,214	-4,68
931,578	-49,15
931,943	25,75
932,307	18,72
932,672	11,7
933,036	70,22
933,4	-2,34
933,764	-2,34
934,128	105,32
934,492	65,53
934,856	95,96
935,22	100,64
935,584	-21,06
935,948	56,17
936,311	95,96
936,675	79,58
937,039	105,32
937,402	124,05
937,765	67,88
938,129	93,62
938,492	35,11
938,855	79,58
939,218	37,45
939,581	-4,68
939,944	23,41
940,307	67,88
940,67	152,13
941,033	98,3
941,396	4,68
941,758	86,6
942,121	-14,04
942,483	-23,41
942,846	2,34
943,208	49,15
943,571	28,09
943,933	37,45
944,295	11,7
944,657	79,58
945,019	60,85
945,381	81,92
945,743	-9,36
946,105	-98,3
946,467	39,79
946,828	9,36
947,19	25,75
947,551	9,36
947,913	156,82
948,274	-4,68
948,636	9,36
948,997	53,83
949,358	-37,45
949,719	63,19
950,08	86,6
950,441	-77,24
950,802	156,82
951,163	32,77
951,524	166,18
951,885	65,53
952,245	100,64
952,606	128,73
952,966	-2,34
953,327	86,6
953,687	114,69
954,047	67,88
954,408	39,79
954,768	63,19
955,128	60,85
955,488	-46,81
955,848	28,09
956,208	23,41
956,568	77,24
956,927	44,47
957,287	2,34
957,647	79,58
958,006	105,32
958,366	65,53
958,725	63,19
959,084	145,11
959,444	35,11
959,803	74,9
960,162	60,85
960,521	72,56
960,88	51,49
961,239	77,24
961,598	39,79
961,957	58,51
962,315	-21,06
962,674	86,6
963,033	98,3
963,391	-32,77
963,75	37,45
964,108	63,19
964,466	84,26
964,824	93,62
965,183	9,36
965,541	-23,41
965,899	133,41
966,257	32,77
966,614	9,36
966,972	98,3
967,33	23,41
967,688	117,03
968,045	49,15
968,403	81,92
968,76	259,8
969,118	280,86
969,475	301,93
969,832	318,31
970,189	198,95
970,546	334,7
970,903	205,97
971,26	210,65
971,617	154,48
971,974	23,41
972,331	25,75
972,688	63,19
973,044	46,81
973,401	44,47
973,757	-28,09
974,114	30,43
974,47	39,79
974,826	117,03
975,182	21,06
975,538	35,11
975,895	60,85
976,251	140,43
976,606	56,17
976,962	37,45
977,318	77,24
977,674	98,3
978,029	32,77
978,385	39,79
978,74	58,51
979,096	28,09
979,451	-9,36
979,806	67,88
980,162	-9,36
980,517	51,49
980,872	35,11
981,227	35,11
981,582	121,71
981,937	23,41
982,291	105,32
982,646	198,95
983,001	72,56
983,355	114,69
983,71	81,92
984,064	37,45
984,419	-4,68
984,773	-16,38
985,127	79,58
985,481	152,13
985,835	53,83
986,189	91,28
986,543	98,3
986,897	44,47
987,251	60,85
987,605	25,75
987,958	58,51
988,312	35,11
988,665	86,6
989,019	65,53
989,372	-39,79
989,725	56,17
990,079	67,88
990,432	42,13
990,785	-18,72
991,138	-49,15
991,491	-44,47
991,844	14,04
992,197	-32,77
992,549	124,05
992,902	-21,06
993,254	112,35
993,607	49,15
993,959	32,77
994,312	149,79
994,664	81,92
995,016	154,48
995,368	9,36
995,721	-7,02
996,073	65,53
996,425	2,34
996,776	28,09
997,128	166,18
997,48	65,53
997,832	-37,45
998,183	56,17
998,535	7,02
998,886	49,15
999,237	84,26
999,589	72,56
999,94	14,04
1000,291	100,64
1000,642	9,36
1000,993	16,38
1001,344	91,28
1001,695	46,81
1002,046	44,47
1002,397	49,15
1002,747	77,24
1003,098	114,69
1003,448	49,15
1003,799	-11,7
1004,149	23,41
1004,499	88,94
1004,85	18,72
1005,2	51,49
1005,55	-11,7
1005,9	18,72
1006,25	84,26
1006,6	65,53
1006,949	58,51
1007,299	44,47
1007,649	60,85
1007,998	9,36
1008,348	-4,68
1008,697	-0
1009,047	110,01
1009,396	35,11
1009,745	138,09
1010,094	86,6
1010,443	-9,36
1010,792	49,15
1011,141	44,47
1011,49	-7,02
1011,839	42,13
1012,188	28,09
1012,536	-32,77
1012,885	30,43
1013,233	154,48
1013,582	25,75
1013,93	86,6
1014,278	93,62
1014,627	140,43
1014,975	-4,68
1015,323	58,51
1015,671	93,62
1016,019	37,45
1016,367	77,24
1016,714	-88,94
1017,062	14,04
1017,41	-4,68
1017,757	-53,83
1018,105	112,35
1018,452	67,88
1018,8	152,13
1019,147	117,03
1019,494	23,41
1019,841	-60,85
1020,188	28,09
1020,535	-23,41
1020,882	67,88
1021,229	70,22
1021,576	72,56
1021,922	16,38
1022,269	84,26
1022,615	37,45
1022,962	-14,04
1023,308	-14,04
1023,655	-14,04
